<EligibilityResponse xmlns="http://hl7.org/fhir" xmlns:xsi="http://www.w3.org/2001/XMLSchema-instance" xsi:schemaLocation="http://hl7.org/fhir ../../schema/remittance.xsd">
	<id value="E2502"/>

	<text>
		<status value="generated"/>
		<div xmlns="http://www.w3.org/1999/xhtml">A human-readable rendering of the EligibilityResponse.</div>
	</text>

	<contained>
		<Patient>
			<id value="patient-1"/>
			<name>
				<use value="official"/>
				<family value="Donald"/>
				<given value="Duck"/>
			</name>
			<gender value="male"/>
			<birthDate value="1986-05-17"/>
			<address>
				<use value="home"/>
				<line value="1234 Main Street"/>
				<city value="Vancouver"/>
				<postalCode value="V2H1Y3"/>
				<country value="CAD"/>
			</address>
		</Patient>
	</contained>

	<contained>
		<Coverage>
			<id value="coverage-1"/>

			<identifier>
				<system value="http://benefitsinc.com/certificate"/>
				<value value="12345"/>
			</identifier>

			<status value="active"/>

			<type>
				<coding>
					<system value="http://terminology.hl7.org/CodeSystem/v3-ActCode"/>
					<code value="EHCPOL"/>
				</coding>
			</type>

			<subscriber>
				<reference value="#patient-1"/>
			</subscriber>

			<beneficiary>
				<reference value="#patient-1"/>
			</beneficiary>
			<dependent value="1"/>

			<relationship>
				<coding>
					<code value="self"/>
				</coding>
			</relationship>

			<payor>
				<identifier>
					<system value="http://www.bindb.com/bin"/>
					<value value="123456"/>
				</identifier>
			</payor>

			<class>
				<type>
					<system value="http://terminology.hl7.org/CodeSystem/coverage-class"/>
					<code value="plan"/>
				</type>
				<value value="CBI35"/>
				<name value="Corporate Baker's Inc. Plan#35"/>
			</class>

			<class>
				<type>
					<system value="http://terminology.hl7.org/CodeSystem/coverage-class"/>
					<code value="subplan"/>
				</type>
				<value value="123"/>
				<name value="Trainee Part-time Benefits"/>
			</class>

			<class>
				<type>
					<system value="http://terminology.hl7.org/CodeSystem/coverage-class"/>
					<code value="sequence"/>
				</type>
				<value value="1"/>
			</class>

		</Coverage>
	</contained>

	<identifier>
		<system value="http://www.BenefitsInc.com/fhir/eligibilityresponse"/>
		<value value="8812342"/>
	</identifier>

	<status value="active"/>
	
	<purpose value="validation"/>
	<purpose value="benefits"/>

	<created value="2014-09-16"/>

	<requestProvider>
		<identifier>
			<system value="http://national.org/clinic"/>
			<value value="OR1234"/>
		</identifier>   
	</requestProvider>

	<request>
		<reference value="http://www.BenefitsInc.com/fhir/eligibility/225476332405"/>
	</request>

	<outcome value="complete" />

	<disposition value="Policy is currently in-force."/>

	<insurer>
		<reference value="Organization/2"/>
	</insurer>

	<insurance>
		<coverage>
			<reference value="#coverage-1"/>
		</coverage>
		<contract>
			<reference value="http://www.BenefitsInc.com/fhir/contract/NBU22547"/>
		</contract>
		<inforce value="true"/>

		<detail>
			<category>
				<coding>
					<system value="http://terminology.hl7.org/CodeSystem/ex-benefitcategory"/>
					<code value="30"/>
					<display value="Health Benefit Plan Coverage"/>
				</coding>
			</category>

			<network>
				<coding>
					<system value="http://terminology.hl7.org/CodeSystem/benefit-network"/>
					<code value="in"/>
				</coding>
			</network>

			<unit>
				<coding>
					<system value="http://terminology.hl7.org/CodeSystem/benefit-unit"/>
					<code value="individual"/>
				</coding>
			</unit>

			<term>
				<coding>
					<system value="http://terminology.hl7.org/CodeSystem/benefit-term"/>
					<code value="annual"/>
				</coding>
			</term>

			<benefit>
				<type>
					<coding>
						<code value="benefit"/>
					</coding>
				</type>

				<allowedMoney>
					<value value="500000"/>
					<currency value="USD"/> 
				</allowedMoney>

				<usedMoney>
					<value value="3748.00"/>
					<currency value="USD"/> 
				</usedMoney>

			</benefit>

			<benefit>
				<type>
					<coding>
						<code value="copay-maximum"/>
					</coding>
				</type>

				<allowedMoney>
					<value value="100"/>
					<currency value="USD"/> 
				</allowedMoney>
			</benefit>

			<benefit>
				<type>
					<coding>
						<code value="copay-percent"/>
					</coding>
				</type>

				<allowedUnsignedInt value="20"/>
			</benefit>
		</detail>

		<detail>
			<category>
				<coding>
					<system value="http://terminology.hl7.org/CodeSystem/ex-benefitcategory"/>
					<code value="69"/>
					<display value="Maternity"/>
				</coding>
			</category>

			<network>
				<coding>
					<system value="http://terminology.hl7.org/CodeSystem/benefit-network"/>
					<code value="in"/>
				</coding>
			</network>

			<unit>
				<coding>
					<system value="http://terminology.hl7.org/CodeSystem/benefit-unit"/>
					<code value="individual"/>
				</coding>
			</unit>

			<term>
				<coding>
					<system value="http://terminology.hl7.org/CodeSystem/benefit-term"/>
					<code value="annual"/>
				</coding>
			</term>

			<benefit>
				<type>
					<coding>
						<code value="benefit"/>
					</coding>
				</type>

				<allowedMoney>
					<value value="15000"/>
					<currency value="USD"/> 
				</allowedMoney>
			</benefit>

		</detail>
		<detail>
			<category>
				<coding>
					<system value="http://terminology.hl7.org/CodeSystem/ex-benefitcategory"/>
					<code value="F3"/>
					<display value="Dental Coverage"/>
				</coding>
			</category>

			<network>
				<coding>
					<system value="http://terminology.hl7.org/CodeSystem/benefit-network"/>
					<code value="in"/>
				</coding>
			</network>

			<unit>
				<coding>
					<system value="http://terminology.hl7.org/CodeSystem/benefit-unit"/>
					<code value="individual"/>
				</coding>
			</unit>

			<term>
				<coding>
					<system value="http://terminology.hl7.org/CodeSystem/benefit-term"/>
					<code value="annual"/>
				</coding>
			</term>

			<benefit>
				<type>
					<coding>
						<code value="benefit"/>
					</coding>
				</type>

				<allowedMoney>
					<value value="2000"/>
					<currency value="USD"/> 
				</allowedMoney>
			</benefit>

		</detail>
		<detail>
			<category>
				<coding>
					<system value="http://terminology.hl7.org/CodeSystem/ex-benefitcategory"/>
					<code value="F6"/>
					<display value="Vision Coverage"/>
				</coding>
			</category>

			<excluded value="true"/> <!-- this benefit category is not covered under the plan -->
			<name value="Vision"/>
			<description value="Vision products and services such as exams, glasses and contact lenses."/>

		</detail>
	</insurance>

	<form>
		<coding>
			<system value="http://national.org/form"/>
			<code value="ELRSP/2017/01"/>
		</coding>
	</form>

</EligibilityResponse>